Wavelength (um)    Albedo
1.000E-01    7.236E-03
1.800E-01    7.236E-03
1.900E-01    5.057E-02
2.000E-01    1.563E-01
2.100E-01    1.563E-01
2.200E-01    1.502E-01
2.300E-01    1.257E-01
2.400E-01    1.147E-01
2.500E-01    9.888E-02
2.600E-01    5.005E-02
2.700E-01    2.152E-02
2.800E-01    1.600E-02
3.800E-01    4.591E-02
4.000E-01    5.612E-02
4.200E-01    6.497E-02
4.400E-01    7.407E-02
4.600E-01    8.317E-02
4.800E-01    9.494E-02
5.000E-01    1.083E-01
5.200E-01    1.233E-01
5.400E-01    1.454E-01
5.600E-01    1.715E-01
5.800E-01    2.007E-01
6.000E-01    2.250E-01
6.200E-01    2.451E-01
6.400E-01    2.512E-01
6.741E-01    2.741E-01
7.326E-01    2.943E-01
7.506E-01    2.989E-01
7.641E-01    3.000E-01
7.951E-01    2.981E-01
8.262E-01    2.942E-01
8.572E-01    2.896E-01
8.928E-01    2.895E-01
9.508E-01    2.942E-01
1.004E+00    2.988E-01
1.080E+00    3.050E-01
1.161E+00    3.081E-01
1.223E+00    3.104E-01
1.290E+00    3.103E-01
1.370E+00    3.049E-01
1.490E+00    2.970E-01
1.561E+00    2.947E-01
1.646E+00    2.962E-01
1.708E+00    2.985E-01
1.779E+00    2.992E-01
1.877E+00    2.984E-01
1.997E+00    2.953E-01
2.135E+00    2.921E-01
2.215E+00    2.874E-01
2.304E+00    2.796E-01
2.371E+00    2.741E-01
2.473E+00    2.679E-01
2.500E+00    2.650E-01
2.600E+00    2.509E-01
2.700E+00    7.679E-02
2.750E+00    4.709E-02
2.800E+00    3.889E-02
2.850E+00    5.050E-02
2.900E+00    5.678E-02
2.950E+00    5.753E-02
3.000E+00    6.415E-02
3.050E+00    6.775E-02
3.100E+00    7.426E-02
3.150E+00    8.247E-02
3.200E+00    9.145E-02
3.250E+00    1.024E-01
3.300E+00    1.109E-01
3.350E+00    1.113E-01
3.400E+00    1.218E-01
3.450E+00    1.271E-01
3.500E+00    1.362E-01
3.550E+00    1.489E-01
3.600E+00    1.538E-01
3.650E+00    1.615E-01
3.700E+00    1.678E-01
3.750E+00    1.692E-01
3.800E+00    1.783E-01
3.850E+00    1.850E-01
3.900E+00    1.911E-01
3.950E+00    1.942E-01
4.000E+00    2.011E-01
4.172E+00    2.136E-01
4.288E+00    2.067E-01
4.495E+00    1.964E-01
4.598E+00    1.854E-01
4.707E+00    1.761E-01
4.820E+00    1.695E-01
4.939E+00    1.537E-01
5.064E+00    1.380E-01
5.196E+00    1.240E-01
5.334E+00    1.092E-01
5.481E+00    1.042E-01
5.635E+00    1.011E-01
5.798E+00    9.084E-02
5.971E+00    5.800E-02
6.155E+00    3.928E-02
6.351E+00    7.349E-02
6.559E+00    7.265E-02
6.782E+00    6.386E-02
7.020E+00    5.114E-02
7.275E+00    3.764E-02
7.550E+00    2.294E-02
7.846E+00    1.042E-02
8.167E+00    3.701E-03
8.514E+00    3.171E-03
8.893E+00    5.305E-03
9.307E+00    7.889E-03
9.762E+00    8.061E-03
1.026E+01    6.855E-03
1.082E+01    6.786E-03
1.144E+01    8.296E-03
1.213E+01    6.930E-03
1.292E+01    4.826E-03
1.381E+01    4.052E-03
1.484E+01    2.845E-03
1.603E+01    3.003E-03
1.742E+01    4.707E-03
1.909E+01    6.328E-03
2.111E+01    1.721E-02
2.500E+02    1.000E-02
